{
  "resourceType": "Bundle",
  "id": "bundle-transaction-bga",
  "meta": {
    "lastUpdated": "2020-09-24T05:33:00Z"
  },
  "type": "transaction",
  "entry": [
    {
      "fullUrl": "urn:uuid:04121321-4af5-424c-a0e1-ed3aab1c349d",
      "resource": {
        "resourceType": "Observation",
        "meta": {
          "profile": [
            "https://www.netzwerk-universitaetsmedizin.de/fhir/StructureDefinition/blood-gas-panel"
          ]
        },
        "identifier": [
          {
            "type": {
              "coding": [
                {
                  "system": "http://terminology.hl7.org/CodeSystem/v2-0203",
                  "code": "OBI"
                }
              ]
            },
            "system": "https://www.charite.de/fhir/CodeSystem/lab-identifiers",
            "value": "24336-0_gasPanelBldA",
            "assigner": {
              "reference": "Organization/Charité"
            }
          }
        ],
        "status": "final",
        "category": [
          {
            "coding": [
              {
                "system": "http://loinc.org",
                "code": "26436-6"
              },
              {
                "system": "http://terminology.hl7.org/CodeSystem/observation-category",
                "code": "laboratory"
              }
            ]
          }
        ],
        "code": {
          "coding": [
            {
              "system": "http://loinc.org",
              "code": "24336-0",
              "display": "Gas panel (BldA)"
            }
          ],
          "text": "Gas panel - Arterial blood"
        },
        "subject": {
          "identifier": {
            "system": "urn:ietf:rfc:4122",
            "value": "{{patientId}}"
          }
        },
        "effectiveDateTime": "2020-09-21",
        "hasMember": [
          {
            "reference": "urn:uuid:04121321-4af5-424c-a0e1-ed3aab1casd1"
          },
          {
            "reference": "urn:uuid:04121321-4af5-424c-a0e1-ed3aab1casd2"
          },
          {
            "reference": "urn:uuid:04121321-4af5-424c-a0e1-ed3aab1casd3"
          },
          {
            "reference": "urn:uuid:04121321-4af5-424c-a0e1-ed3aab1casd4"
          },
          {
            "reference": "urn:uuid:04121321-4af5-424c-a0e1-ed3aab1casd5"
          }
        ]
      },
      "request": {
        "method": "POST",
        "url": "Observation"
      }
    },
    {
      "fullUrl": "urn:uuid:04121321-4af5-424c-a0e1-ed3aab1casd1",
      "resource": {
        "resourceType": "Observation",
        "meta": {
          "profile": [
            "https://www.netzwerk-universitaetsmedizin.de/fhir/StructureDefinition/pH"
          ]
        },
        "identifier": [
          {
            "type": {
              "coding": [
                {
                  "system": "http://terminology.hl7.org/CodeSystem/v2-0203",
                  "code": "OBI"
                }
              ]
            },
            "system": "https://www.charite.de/fhir/CodeSystem/lab-identifiers",
            "value": "2744-1_pH",
            "assigner": {
              "reference": "Organization/Charité"
            }
          }
        ],
        "status": "final",
        "category": [
          {
            "coding": [
              {
                "system": "http://loinc.org",
                "code": "26436-6"
              },
              {
                "system": "http://terminology.hl7.org/CodeSystem/observation-category",
                "code": "laboratory"
              }
            ]
          }
        ],
        "code": {
          "coding": [
            {
              "system": "http://loinc.org",
              "code": "2744-1",
              "display": "pH (BldA)"
            }
          ],
          "text": "pH of Arterial blood"
        },
        "subject": {
          "identifier": {
            "system": "urn:ietf:rfc:4122",
            "value": "{{patientId}}"
          }
        },
        "effectiveDateTime": "2020-09-21",
        "valueQuantity": {
          "value": 7.4,
          "unit": "pH",
          "system": "http://unitsofmeasure.org",
          "code": "[pH]"
        }
      },
      "request": {
        "method": "POST",
        "url": "Observation"
      }
    },
    {
      "fullUrl": "urn:uuid:04121321-4af5-424c-a0e1-ed3aab1casd2",
      "resource": {
        "resourceType": "Observation",
        "meta": {
          "profile": [
            "https://www.netzwerk-universitaetsmedizin.de/fhir/StructureDefinition/carbon-dioxide-partial-pressure"
          ]
        },
        "identifier": [
          {
            "type": {
              "coding": [
                {
                  "system": "http://terminology.hl7.org/CodeSystem/v2-0203",
                  "code": "OBI"
                }
              ]
            },
            "system": "https://www.charite.de/fhir/CodeSystem/lab-identifiers",
            "value": "2019-8_paCO2",
            "assigner": {
              "reference": "Organization/Charité"
            }
          }
        ],
        "status": "final",
        "category": [
          {
            "coding": [
              {
                "system": "http://loinc.org",
                "code": "26436-6"
              },
              {
                "system": "http://terminology.hl7.org/CodeSystem/observation-category",
                "code": "laboratory"
              }
            ]
          }
        ],
        "code": {
          "coding": [
            {
              "system": "http://loinc.org",
              "code": "2019-8",
              "display": "CO2 (BldA) [Partial pressure]"
            }
          ],
          "text": "Carbon dioxide [Partial pressure] in Arterial blood"
        },
        "subject": {
          "identifier": {
            "system": "urn:ietf:rfc:4122",
            "value": "{{patientId}}"
          }
        },
        "effectiveDateTime": "2020-09-21",
        "valueQuantity": {
          "value": 44,
          "unit": "mmHg",
          "system": "http://unitsofmeasure.org",
          "code": "mm[Hg]"
        }
      },
      "request": {
        "method": "POST",
        "url": "Observation"
      }
    },
    {
      "fullUrl": "urn:uuid:04121321-4af5-424c-a0e1-ed3aab1casd3",
      "resource": {
        "resourceType": "Observation",
        "meta": {
          "profile": [
            "https://www.netzwerk-universitaetsmedizin.de/fhir/StructureDefinition/oxygen-partial-pressure"
          ]
        },
        "identifier": [
          {
            "type": {
              "coding": [
                {
                  "system": "http://terminology.hl7.org/CodeSystem/v2-0203",
                  "code": "OBI"
                }
              ]
            },
            "system": "https://www.charite.de/fhir/CodeSystem/lab-identifiers",
            "value": "2703-7_paO2",
            "assigner": {
              "reference": "Organization/Charité"
            }
          }
        ],
        "status": "final",
        "category": [
          {
            "coding": [
              {
                "system": "http://loinc.org",
                "code": "26436-6"
              },
              {
                "system": "http://terminology.hl7.org/CodeSystem/observation-category",
                "code": "laboratory"
              }
            ]
          }
        ],
        "code": {
          "coding": [
            {
              "system": "http://loinc.org",
              "code": "2703-7",
              "display": "Oxygen (BldA) [Partial pressure]"
            }
          ],
          "text": "Oxygen [Partial pressure] in Arterial blood"
        },
        "subject": {
          "identifier": {
            "system": "urn:ietf:rfc:4122",
            "value": "{{patientId}}"
          }
        },
        "effectiveDateTime": "2020-09-21",
        "valueQuantity": {
          "value": 67,
          "unit": "mmHg",
          "system": "http://unitsofmeasure.org",
          "code": "mm[Hg]"
        }
      },
      "request": {
        "method": "POST",
        "url": "Observation"
      }
    },
    {
      "fullUrl": "urn:uuid:04121321-4af5-424c-a0e1-ed3aab1casd4",
      "resource": {
        "resourceType": "Observation",
        "meta": {
          "profile": [
            "https://www.netzwerk-universitaetsmedizin.de/fhir/StructureDefinition/oxygen-saturation"
          ]
        },
        "identifier": [
          {
            "type": {
              "coding": [
                {
                  "system": "http://terminology.hl7.org/CodeSystem/v2-0203",
                  "code": "OBI"
                }
              ]
            },
            "system": "https://www.charite.de/fhir/CodeSystem/lab-identifiers",
            "value": "2708-6_oxygenSaturation",
            "assigner": {
              "reference": "Organization/Charité"
            }
          }
        ],
        "status": "final",
        "category": [
          {
            "coding": [
              {
                "system": "http://terminology.hl7.org/CodeSystem/observation-category",
                "code": "vital-signs"
              }
            ]
          }
        ],
        "code": {
          "coding": [
            {
              "system": "http://loinc.org",
              "code": "2708-6",
              "display": "Oxygen saturation in Arterial blood"
            }
          ],
          "text": "Oxygen saturation in Arterial blood"
        },
        "subject": {
          "identifier": {
            "system": "urn:ietf:rfc:4122",
            "value": "{{patientId}}"
          }
        },
        "effectiveDateTime": "2020-09-21",
        "valueQuantity": {
          "value": 98,
          "unit": "%",
          "system": "http://unitsofmeasure.org",
          "code": "%"
        }
      },
      "request": {
        "method": "POST",
        "url": "Observation"
      }
    },
    {
      "fullUrl": "urn:uuid:04121321-4af5-424c-a0e1-ed3aab1casd5",
      "resource": {
        "resourceType": "Observation",
        "meta": {
          "profile": [
            "https://www.netzwerk-universitaetsmedizin.de/fhir/StructureDefinition/blood-pressure"
          ]
        },
        "text": {
          "status": "generated",
          "div": "<div xmlns=\"http://www.w3.org/1999/xhtml\"><p><b>Generated Narrative with Details</b></p><p><b>id</b>: blood-pressure</p><p><b>meta</b>: </p><p><b>identifier</b>: urn:uuid:187e0c12-8dd2-67e2-99b2-bf273c878281</p><p><b>basedOn</b>: </p><p><b>status</b>: final</p><p><b>category</b>: Vital Signs <span>(Details : {http://terminology.hl7.org/CodeSystem/observation-category code 'vital-signs' = 'Vital Signs', given as 'Vital Signs'})</span></p><p><b>code</b>: Blood pressure systolic &amp; diastolic <span>(Details : {LOINC code '85354-9' = 'Blood pressure panel with all children optional', given as 'Blood pressure panel with all children optional'})</span></p><p><b>subject</b>: <a>urn:uuid:example</a></p><p><b>effective</b>: 17/09/2012</p><p><b>performer</b>: <a>Practitioner/example</a></p><p><b>interpretation</b>: Below low normal <span>(Details : {http://terminology.hl7.org/CodeSystem/v3-ObservationInterpretation code 'L' = 'Low', given as 'low'})</span></p><p><b>bodySite</b>: Right arm <span>(Details : {SNOMED CT code '368209003' = 'Right upper arm', given as 'Right arm'})</span></p><blockquote><p><b>component</b></p><p><b>code</b>: Systolic blood pressure <span>(Details : {LOINC code '8480-6' = 'Systolic blood pressure', given as 'Systolic blood pressure'}; {SNOMED CT code '271649006' = 'Systolic blood pressure', given as 'Systolic blood pressure'}; {http://acme.org/devices/clinical-codes code 'bp-s' = 'bp-s', given as 'Systolic Blood pressure'})</span></p><p><b>value</b>: 107 mmHg<span> (Details: UCUM code mm[Hg] = 'mmHg')</span></p><p><b>interpretation</b>: Normal <span>(Details : {http://terminology.hl7.org/CodeSystem/v3-ObservationInterpretation code 'N' = 'Normal', given as 'normal'})</span></p></blockquote><blockquote><p><b>component</b></p><p><b>code</b>: Diastolic blood pressure <span>(Details : {LOINC code '8462-4' = 'Diastolic blood pressure', given as 'Diastolic blood pressure'})</span></p><p><b>value</b>: 60 mmHg<span> (Details: UCUM code mm[Hg] = 'mmHg')</span></p><p><b>interpretation</b>: Below low normal <span>(Details : {http://terminology.hl7.org/CodeSystem/v3-ObservationInterpretation code 'L' = 'Low', given as 'low'})</span></p></blockquote></div>"
        },
        "identifier": [
          {
            "system": "urn:ietf:rfc:3986",
            "value": "urn:uuid:04121321-4af5-424c-a0e1-ed3aab1casd5"
          }
        ],
        "basedOn": [
          {
            "identifier": {
              "system": "https://acme.org/identifiers",
              "value": "1234"
            }
          }
        ],
        "status": "final",
        "category": [
          {
            "coding": [
              {
                "system": "http://terminology.hl7.org/CodeSystem/observation-category",
                "code": "vital-signs",
                "display": "Vital Signs"
              }
            ]
          }
        ],
        "code": {
          "coding": [
            {
              "system": "http://loinc.org",
              "code": "85354-9",
              "display": "Blood pressure panel with all children optional"
            }
          ],
          "text": "Blood pressure systolic & diastolic"
        },
        "subject": {
          "identifier": {
            "system": "urn:ietf:rfc:4122",
            "value": "{{patientId}}"
          }
        },
        "effectiveDateTime": "2012-09-17",
        "performer": [
          {
            "reference": "http://external.fhir.server/Practitioner/example"
          }
        ],
        "interpretation": [
          {
            "coding": [
              {
                "system": "http://terminology.hl7.org/CodeSystem/v3-ObservationInterpretation",
                "code": "L",
                "display": "low"
              }
            ],
            "text": "Below low normal"
          }
        ],
        "bodySite": {
          "coding": [
            {
              "system": "http://snomed.info/sct",
              "code": "368209003",
              "display": "Right arm"
            }
          ]
        },
        "component": [
          {
            "code": {
              "coding": [
                {
                  "system": "http://loinc.org",
                  "code": "8480-6",
                  "display": "Systolic blood pressure"
                },
                {
                  "system": "http://snomed.info/sct",
                  "code": "271649006",
                  "display": "Systolic blood pressure"
                },
                {
                  "system": "http://acme.org/devices/clinical-codes",
                  "code": "bp-s",
                  "display": "Systolic Blood pressure"
                }
              ]
            },
            "valueQuantity": {
              "value": 107,
              "unit": "mmHg",
              "system": "http://unitsofmeasure.org",
              "code": "mm[Hg]"
            },
            "interpretation": [
              {
                "coding": [
                  {
                    "system": "http://terminology.hl7.org/CodeSystem/v3-ObservationInterpretation",
                    "code": "N",
                    "display": "normal"
                  }
                ],
                "text": "Normal"
              }
            ]
          },
          {
            "code": {
              "coding": [
                {
                  "system": "http://loinc.org",
                  "code": "8462-4",
                  "display": "Diastolic blood pressure"
                }
              ]
            },
            "valueQuantity": {
              "value": 60,
              "unit": "mmHg",
              "system": "http://unitsofmeasure.org",
              "code": "mm[Hg]"
            },
            "interpretation": [
              {
                "coding": [
                  {
                    "system": "http://terminology.hl7.org/CodeSystem/v3-ObservationInterpretation",
                    "code": "L",
                    "display": "low"
                  }
                ],
                "text": "Below low normal"
              }
            ]
          }
        ]
      }
    }
  ]
}